{
  "study": {
    "key": ["id", "output"],
    "value": ["USUBJID", "output/ard/ard.rds"]
  },
  "datasets": {
    "dataset": ["ADSL", "ADAE", "ADVS", "ADTTE"],
    "level": ["ADaM", "ADaM", "ADaM", "ADaM"],
    "path": ["data/adam/adsl.rds", "data/adam/adae.rds", "data/adam/advs.rds", "data/adam/adtte.rds"],
    "derive": [null, null, null, null]
  },
  "populations": {
    "population_id": ["SAF", "SCRF"],
    "dataset": ["ADSL", "ADSL"],
    "where": ["SAFFL == \"Y\"", "ARM == \"Screen Failure\""],
    "derive": ["TRTA = TRT01A", null]
  },
  "analysis_data": {
    "output_id": ["T-14-1-1", "T-14-1-1S", "T-14-1-2", "T-14-1-3", "T-14-1-4", "T-14-2-1", "T-14-2-1", "T-14-2-3", "T-14-2-3", "T-14-2-2", "T-14-2-2", "T-14-3-1", "T-14-3-1"],
    "data_id": ["adsl_saf", "adsl_saf", "adsl_saf", "adsl_saf", "adsl_scrf", "adsl_saf", "advs_w24", "adsl_saf", "advs_w24", "adsl_saf", "adtte_ttde", "adsl_saf", "adae_saf"],
    "label": ["Safety set", "Safety set", "Safety set", "Safety set", "Screen failures", "Safety set", "Systolic blood pressure at Week 24, safety set", "Safety set", "Systolic blood pressure at Week 24, safety set", "Safety set", "Time to first dermatologic event, safety set", "Safety set", "Treatment-emergent AEs of the safety set"],
    "from": ["ADSL", "ADSL", "ADSL", "ADSL", "ADSL", "ADSL", "ADVS", "ADSL", "ADVS", "ADSL", "ADTTE", "ADSL", "ADAE"],
    "population_id": ["SAF", "SAF", "SAF", "SAF", "SCRF", "SAF", null, "SAF", null, "SAF", null, "SAF", null],
    "subjects": [null, null, null, null, null, null, "adsl_saf", null, "adsl_saf", null, "adsl_saf", null, "adsl_saf"],
    "where": [null, null, null, null, null, null, "PARAMCD == \"SYSBP\" & AVISIT == \"Week 24\"", null, "PARAMCD == \"SYSBP\" & AVISIT == \"Week 24\"", null, "PARAMCD == \"TTDE\"", null, "TRTEMFL == \"Y\""],
    "add": [null, null, null, null, null, null, null, null, null, null, null, null, null],
    "derive": [null, null, null, null, null, null, null, null, null, null, null, null, null],
    "keep": [null, null, null, null, null, null, null, null, null, null, null, null, null],
    "distinct": [null, null, null, null, null, null, null, null, null, null, null, null, null],
    "code": [null, null, null, null, null, null, null, null, null, null, null, null, null]
  },
  "analyses": {
    "output_id": ["T-14-1-1", "T-14-1-1", "T-14-1-1", "T-14-1-1S", "T-14-1-1S", "T-14-1-1S", "T-14-1-2", "T-14-1-2", "T-14-2-1", "T-14-2-1", "T-14-0-1", "T-14-1-4", "T-14-1-4", "T-14-1-4", "T-14-1-3", "T-14-1-3", "T-14-2-3", "T-14-2-3", "T-14-2-3", "T-14-2-2", "T-14-2-2", "T-14-2-2", "T-14-3-1"],
    "analysis_id": ["GROUPN", "CONT", "CAT", "STACK", "CONT", "CAT", "GROUPN", "DISP", "GROUPN", "SYSBP", "INFO", "GROUPN", "CONT", "CAT", "GROUPN", "CAT", "GROUPN", "N", "CI", "GROUPN", "KM", "HR", "TEAE"],
    "parent": [null, null, null, null, "STACK", "STACK", null, null, null, null, null, null, null, null, null, null, null, null, null, null, null, null, null],
    "label": ["Subjects per group", "Continuous", "Categorical", "Demographics, run together", "Continuous", "Categorical", null, "Status at end of study", null, "SYSBP at Week 24", "Study information", null, "Continuous", "Categorical", null, "Age group and sex", null, "Subjects", "Mean change (95% CI), one-sample t-test", null, "Kaplan-Meier estimates", "Hazard ratio vs placebo (Cox), not printed in the table", "TEAE by SOC / PT"],
    "method": ["categorical", "continuous", "categorical", "cards::ard_stack", "continuous", "categorical", "categorical", "categorical", "categorical", "continuous", "custom", "categorical", "continuous", "categorical", "categorical", "categorical", "categorical", "continuous", "mean_ci", "categorical", "custom", "custom", "hierarchical"],
    "data": ["adsl_saf", "adsl_saf", "adsl_saf", "adsl_saf", null, null, "adsl_saf", "adsl_saf", "adsl_saf", "advs_w24", null, "adsl_scrf", "adsl_scrf", "adsl_scrf", "adsl_saf", "adsl_saf", "adsl_saf", "advs_w24", "advs_w24", "adsl_saf", "adtte_ttde", "adtte_ttde", "adae_saf"],
    "dataset": [null, null, null, null, null, null, null, null, null, null, "ADSL", null, null, null, null, null, null, null, null, null, null, null, null],
    "population_id": [null, null, null, null, null, null, null, null, null, null, null, null, null, null, null, null, null, null, null, null, null, null, null],
    "where": [null, null, null, null, null, null, null, null, null, null, null, null, null, null, null, null, null, null, null, null, null, null, null],
    "by": [null, "TRT01A", "TRT01A", "TRT01A", null, null, null, "TRT01A", null, "TRTA", null, null, "ARM", "ARM", null, "TRT01A", null, "TRTA", "TRTA", null, null, null, "TRT01A"],
    "strata": [null, null, null, null, null, null, null, null, null, null, null, null, null, null, null, null, null, null, null, null, null, null, null],
    "variables": ["TRT01A", "AGE", "AGEGR1 | SEX | RACE | ETHNIC", null, "AGE", "AGEGR1 | SEX | RACE | ETHNIC", "TRT01A", "EOSSTT", "TRTA", "BASE | AVAL | CHG", null, "ARM", "AGE", "AGEGR1 | SEX | RACE", "TRT01A", "AGEGR1 | SEX", "TRTA", "CHG", "CHG", "TRT01A", null, null, "AEBODSYS | AEDECOD"],
    "statistics": [null, "N | mean | sd | median | min | max", "n | p", null, "N | mean | sd | median | min | max", "n | p", null, "n | p", null, "N | mean | sd | se | mean_lcl | mean_ucl | median | min | max", null, null, "N | mean | sd | median | min | max", "n | p", null, null, null, "N", null, null, null, null, null],
    "denominator": [null, null, null, null, null, null, null, null, null, null, null, null, null, null, null, null, null, null, null, null, null, null, "adsl_saf"],
    "formats": [null, null, null, null, null, null, null, null, null, null, null, null, null, null, null, null, null, null, null, null, null, null, null],
    "args": [null, null, null, null, null, null, null, null, null, null, null, null, null, null, null, null, null, null, null, null, null, null, "over_variables = TRUE"],
    "post": [null, null, null, null, null, null, null, null, null, null, null, null, null, null, null, null, null, null, null, null, null, null, null],
    "code": [null, null, null, null, null, null, null, null, null, null, "facts <- c(\n  \"MedDRA version\" = \"Version 26.1\",\n  \"WHODrug version\" = \"Global B3 March 2023\",\n  \"First dose\" = format(min(data$TRTSDT, na.rm = TRUE)),\n  \"Last dose\" = format(max(data$TRTEDT, na.rm = TRUE)),\n  \"Data cut-off\" = format(max(data$LSTALVDT, na.rm = TRUE))\n)\ncards::as_card(dplyr::tibble(\n  variable = \"INFO\", variable_level = as.list(names(facts)),\n  context = \"study_info\", stat_name = \"value\", stat_label = \"Value\",\n  stat = as.list(unname(facts)), fmt_fun = list(NULL),\n  warning = list(NULL), error = list(NULL)\n))", null, null, null, null, null, null, null, null, null, "fit <- survival::survfit(survival::Surv(AVAL, 1 - CNSR) ~ TRT01A, data = data)\ncards::bind_ard(\n  cardx::ard_survival_survfit(fit, probs = 0.5),\n  cardx::ard_survival_survfit(fit, times = c(0, 30, 60, 90, 120, 150, 180)),\n  .quiet = TRUE)", "cardx::ard_regression(\n  survival::coxph(survival::Surv(AVAL, 1 - CNSR) ~ TRT01A, data = data),\n  exponentiate = TRUE)", null],
    "purpose": [null, null, null, null, null, null, null, null, null, null, null, null, null, null, null, null, null, null, null, null, null, null, null],
    "reason": [null, null, null, null, null, null, null, null, null, null, null, null, null, null, null, null, null, null, null, null, null, null, null]
  }
}
